PE FL                   SPECTRUM    ASCII       PEDS        1.60        
  -1
0124DI~2.SP
19/01/24
10:12:07.00
19/01/24
10:12:07.00


548.500000
1









LS45
235.00
10.00
10.00
SCAN
1
16
100
100
0
600
0
1
0
1
7
ON
435 365 
0 0 0
#HDR
-1
-1
#GR
NM
INT 
0.00002384185791015625
0.0
230.000000
0.500000
638
8
962.909000
2.302000
#DATA
230.000000	49.756000  
230.500000	52.848000  
231.000000	55.520000  
231.500000	60.743000  
232.000000	59.134000  
232.500000	62.308000  
233.000000	63.435000  
233.500000	63.624000  
234.000000	63.356000  
234.500000	65.051000  
235.000000	65.117999  
235.500000	62.898000  
236.000000	63.774000  
236.500000	63.054000  
237.000000	63.101000  
237.500000	60.729000  
238.000000	57.859000  
238.500000	54.916000  
239.000000	55.854000  
239.500000	54.152000  
240.000000	51.705000  
240.500000	49.587000  
241.000000	49.912000  
241.500000	49.908000  
242.000000	49.424000  
242.500000	46.929000  
243.000000	47.140000  
243.500000	47.022000  
244.000000	45.746000  
244.500000	47.520000  
245.000000	45.659000  
245.500000	44.339000  
246.000000	46.131000  
246.500000	50.446000  
247.000000	48.595000  
247.500000	47.593000  
248.000000	48.898000  
248.500000	49.141000  
249.000000	50.658000  
249.500000	50.968000  
250.000000	51.983000  
250.500000	52.752000  
251.000000	53.184000  
251.500000	54.047000  
252.000000	56.006000  
252.500000	54.300000  
253.000000	56.936000  
253.500000	56.161000  
254.000000	54.139000  
254.500000	55.377000  
255.000000	56.157000  
255.500000	57.250000  
256.000000	54.342000  
256.500000	53.896000  
257.000000	50.660000  
257.500000	50.035000  
258.000000	49.437000  
258.500000	48.787000  
259.000000	46.747000  
259.500000	43.996000  
260.000000	42.791000  
260.500000	38.572000  
261.000000	37.403000  
261.500000	35.491000  
262.000000	32.813000  
262.500000	32.217000  
263.000000	30.146000  
263.500000	28.818000  
264.000000	27.949000  
264.500000	25.164000  
265.000000	21.602000  
265.500000	19.437000  
266.000000	18.661000  
266.500000	15.701000  
267.000000	15.616000  
267.500000	13.948000  
268.000000	12.238000  
268.500000	11.066000  
269.000000	10.019000  
269.500000	8.804000   
270.000000	8.630000   
270.500000	8.670000   
271.000000	7.076000   
271.500000	5.939000   
272.000000	5.309000   
272.500000	5.174000   
273.000000	4.369000   
273.500000	4.209000   
274.000000	3.939000   
274.500000	3.219000   
275.000000	3.339000   
275.500000	3.118000   
276.000000	3.071000   
276.500000	2.844000   
277.000000	2.578000   
277.500000	2.881000   
278.000000	2.533000   
278.500000	2.302000   
279.000000	2.557000   
279.500000	2.746000   
280.000000	2.929000   
280.500000	3.006000   
281.000000	3.396000   
281.500000	3.189000   
282.000000	3.267000   
282.500000	3.092000   
283.000000	2.846000   
283.500000	3.233000   
284.000000	3.120000   
284.500000	3.538000   
285.000000	3.407000   
285.500000	3.310000   
286.000000	2.766000   
286.500000	3.397000   
287.000000	3.522000   
287.500000	3.557000   
288.000000	3.230000   
288.500000	3.067000   
289.000000	3.433000   
289.500000	4.041000   
290.000000	3.315000   
290.500000	3.216000   
291.000000	4.103000   
291.500000	3.737000   
292.000000	3.704000   
292.500000	3.616000   
293.000000	3.635000   
293.500000	3.628000   
294.000000	3.641000   
294.500000	4.006000   
295.000000	4.145000   
295.500000	4.388000   
296.000000	4.090000   
296.500000	4.200000   
297.000000	4.721000   
297.500000	4.588000   
298.000000	4.130000   
298.500000	4.263000   
299.000000	4.177000   
299.500000	4.172000   
300.000000	4.604000   
300.500000	5.064000   
301.000000	5.469000   
301.500000	4.908000   
302.000000	5.136000   
302.500000	5.213000   
303.000000	5.178000   
303.500000	5.145000   
304.000000	5.169000   
304.500000	5.173000   
305.000000	5.203000   
305.500000	5.786000   
306.000000	4.953000   
306.500000	5.196000   
307.000000	5.730000   
307.500000	5.564000   
308.000000	5.294000   
308.500000	5.791000   
309.000000	5.525000   
309.500000	6.206000   
310.000000	6.204000   
310.500000	6.435000   
311.000000	6.547000   
311.500000	6.172000   
312.000000	6.007000   
312.500000	6.362000   
313.000000	6.046000   
313.500000	6.342000   
314.000000	5.406000   
314.500000	6.369000   
315.000000	7.352000   
315.500000	6.698000   
316.000000	6.959000   
316.500000	6.882000   
317.000000	6.212000   
317.500000	6.716000   
318.000000	6.969000   
318.500000	7.699000   
319.000000	7.350000   
319.500000	6.619000   
320.000000	6.785000   
320.500000	7.107000   
321.000000	7.380000   
321.500000	7.026000   
322.000000	7.042000   
322.500000	6.726000   
323.000000	6.969000   
323.500000	7.438000   
324.000000	7.417000   
324.500000	7.078000   
325.000000	7.297000   
325.500000	7.167000   
326.000000	7.221000   
326.500000	7.616000   
327.000000	7.176000   
327.500000	7.956000   
328.000000	7.535000   
328.500000	7.601000   
329.000000	7.787000   
329.500000	7.976000   
330.000000	7.279000   
330.500000	7.090000   
331.000000	7.665000   
331.500000	7.445000   
332.000000	7.260000   
332.500000	7.845000   
333.000000	8.292999   
333.500000	7.463000   
334.000000	7.964000   
334.500000	7.139000   
335.000000	7.797000   
335.500000	7.376000   
336.000000	7.462000   
336.500000	7.608000   
337.000000	7.538000   
337.500000	7.422000   
338.000000	6.988000   
338.500000	7.861000   
339.000000	7.394000   
339.500000	7.548000   
340.000000	7.034000   
340.500000	7.127000   
341.000000	7.340000   
341.500000	7.682000   
342.000000	7.594000   
342.500000	6.725000   
343.000000	6.820000   
343.500000	6.891000   
344.000000	7.047000   
344.500000	6.678000   
345.000000	7.027000   
345.500000	6.739000   
346.000000	6.539000   
346.500000	6.226000   
347.000000	6.370000   
347.500000	6.616000   
348.000000	6.736000   
348.500000	6.698000   
349.000000	6.046000   
349.500000	6.129000   
350.000000	6.271000   
350.500000	6.189000   
351.000000	5.974000   
351.500000	5.443000   
352.000000	5.903000   
352.500000	6.105000   
353.000000	6.179000   
353.500000	5.599000   
354.000000	5.441000   
354.500000	5.906000   
355.000000	5.909000   
355.500000	5.503000   
356.000000	5.375000   
356.500000	5.385000   
357.000000	5.154000   
357.500000	6.039000   
358.000000	5.537000   
358.500000	5.409000   
359.000000	5.295000   
359.500000	5.169000   
360.000000	5.194000   
360.500000	4.732000   
361.000000	4.878000   
361.500000	5.135000   
362.000000	5.257000   
362.500000	5.452000   
363.000000	5.351000   
363.500000	4.117000   
364.000000	4.451000   
364.500000	4.878000   
365.000000	4.500000   
365.500000	4.963000   
366.000000	4.117000   
366.500000	4.907000   
367.000000	5.395000   
367.500000	4.416000   
368.000000	5.243000   
368.500000	4.834000   
369.000000	4.506000   
369.500000	4.383000   
370.000000	4.663000   
370.500000	4.440000   
371.000000	4.595000   
371.500000	4.741000   
372.000000	4.539000   
372.500000	4.696000   
373.000000	4.646000   
373.500000	4.776000   
374.000000	4.679000   
374.500000	4.346000   
375.000000	4.336000   
375.500000	4.619000   
376.000000	4.330000   
376.500000	4.414000   
377.000000	4.608000   
377.500000	4.320000   
378.000000	4.493000   
378.500000	4.882000   
379.000000	4.860000   
379.500000	4.626000   
380.000000	5.110000   
380.500000	4.715000   
381.000000	4.818000   
381.500000	4.484000   
382.000000	5.017000   
382.500000	4.606000   
383.000000	4.363000   
383.500000	5.158000   
384.000000	4.894000   
384.500000	4.319000   
385.000000	4.132000   
385.500000	4.328000   
386.000000	4.694000   
386.500000	3.669000   
387.000000	3.809000   
387.500000	4.462000   
388.000000	3.956000   
388.500000	3.840000   
389.000000	4.054000   
389.500000	3.731000   
390.000000	4.007000   
390.500000	4.396000   
391.000000	3.960000   
391.500000	3.325000   
392.000000	4.124000   
392.500000	4.203000   
393.000000	4.030000   
393.500000	4.434000   
394.000000	4.304000   
394.500000	4.117000   
395.000000	3.749000   
395.500000	3.918000   
396.000000	4.071000   
396.500000	3.749000   
397.000000	4.447000   
397.500000	4.909000   
398.000000	4.317000   
398.500000	3.908000   
399.000000	3.876000   
399.500000	4.069000   
400.000000	3.976000   
400.500000	4.137000   
401.000000	4.260000   
401.500000	4.355000   
402.000000	3.684000   
402.500000	4.054000   
403.000000	3.885000   
403.500000	3.682000   
404.000000	4.032000   
404.500000	4.638000   
405.000000	4.620000   
405.500000	4.788000   
406.000000	4.211000   
406.500000	3.829000   
407.000000	4.493000   
407.500000	4.191000   
408.000000	4.159000   
408.500000	4.197000   
409.000000	3.956000   
409.500000	4.719000   
410.000000	4.381000   
410.500000	4.077000   
411.000000	4.032000   
411.500000	4.366000   
412.000000	4.830000   
412.500000	4.267000   
413.000000	3.563000   
413.500000	4.681000   
414.000000	4.349000   
414.500000	4.586000   
415.000000	4.962000   
415.500000	4.433000   
416.000000	4.990000   
416.500000	4.522000   
417.000000	4.653000   
417.500000	4.780000   
418.000000	4.871000   
418.500000	3.694000   
419.000000	4.639000   
419.500000	4.324000   
420.000000	3.760000   
420.500000	3.913000   
421.000000	4.208000   
421.500000	4.624000   
422.000000	4.736000   
422.500000	4.340000   
423.000000	4.626000   
423.500000	4.852000   
424.000000	4.722000   
424.500000	3.919000   
425.000000	4.633000   
425.500000	4.784000   
426.000000	4.322000   
426.500000	4.737000   
427.000000	4.725000   
427.500000	4.669000   
428.000000	5.648000   
428.500000	5.865000   
429.000000	5.328000   
429.500000	4.289000   
430.000000	4.799000   
430.500000	4.440000   
431.000000	5.098000   
431.500000	4.782000   
432.000000	4.851000   
432.500000	5.545000   
433.000000	5.313000   
433.500000	5.564000   
434.000000	5.441000   
434.500000	5.804000   
435.000000	5.646000   
435.500000	5.714000   
436.000000	5.805000   
436.500000	5.428000   
437.000000	6.348000   
437.500000	6.591000   
438.000000	6.344000   
438.500000	6.109000   
439.000000	6.877000   
439.500000	7.624000   
440.000000	7.383000   
440.500000	8.500000   
441.000000	8.395000   
441.500000	9.593000   
442.000000	9.699000   
442.500000	11.435000  
443.000000	12.365000  
443.500000	14.503000  
444.000000	18.034000  
444.500000	21.673000  
445.000000	28.836000  
445.500000	35.235000  
446.000000	43.461000  
446.500000	57.866000  
447.000000	73.974999  
447.500000	91.730999  
448.000000	109.114000 
448.500000	133.877000 
449.000000	152.109000 
449.500000	181.184000 
450.000000	200.513000 
450.500000	240.999000 
451.000000	262.562000 
451.500000	295.986000 
452.000000	320.972000 
452.500000	366.700000 
453.000000	406.498000 
453.500000	441.898000 
454.000000	479.103000 
454.500000	513.232000 
455.000000	555.336000 
455.500000	597.109000 
456.000000	643.489000 
456.500000	686.065000 
457.000000	727.468000 
457.500000	747.839000 
458.000000	780.237000 
458.500000	804.996000 
459.000000	829.884000 
459.500000	851.985000 
460.000000	872.978000 
460.500000	882.626000 
461.000000	898.714000 
461.500000	912.219000 
462.000000	926.378000 
462.500000	933.819000 
463.000000	941.756999 
463.500000	951.804999 
464.000000	959.529000 
464.500000	956.216000 
465.000000	950.804000 
465.500000	959.138000 
466.000000	959.589000 
466.500000	962.909000 
467.000000	959.860000 
467.500000	948.825000 
468.000000	947.388000 
468.500000	933.321000 
469.000000	920.491000 
469.500000	902.742000 
470.000000	900.376000 
470.500000	890.967000 
471.000000	876.274000 
471.500000	870.088000 
472.000000	856.651000 
472.500000	846.893000 
473.000000	816.456000 
473.500000	798.602000 
474.000000	793.653000 
474.500000	768.528000 
475.000000	747.006000 
475.500000	731.519000 
476.000000	696.231000 
476.500000	695.135000 
477.000000	658.795000 
477.500000	641.440000 
478.000000	616.038000 
478.500000	587.204000 
479.000000	571.337000 
479.500000	542.474000 
480.000000	516.756000 
480.500000	491.009000 
481.000000	465.743000 
481.500000	451.007000 
482.000000	432.105000 
482.500000	407.292000 
483.000000	391.932000 
483.500000	371.506000 
484.000000	365.599000 
484.500000	345.600000 
485.000000	331.296000 
485.500000	311.906000 
486.000000	303.798000 
486.500000	280.309000 
487.000000	264.124000 
487.500000	264.912000 
488.000000	250.522000 
488.500000	240.703000 
489.000000	238.906000 
489.500000	223.174000 
490.000000	220.376000 
490.500000	215.169000 
491.000000	213.874000 
491.500000	210.375000 
492.000000	214.581000 
492.500000	212.625000 
493.000000	212.931000 
493.500000	217.065000 
494.000000	221.930000 
494.500000	221.503000 
495.000000	225.371000 
495.500000	231.191000 
496.000000	229.744000 
496.500000	243.635000 
497.000000	244.813000 
497.500000	244.007000 
498.000000	251.811000 
498.500000	259.719000 
499.000000	258.546000 
499.500000	258.625000 
500.000000	261.344000 
500.500000	256.682000 
501.000000	260.359000 
501.500000	263.209000 
502.000000	264.039000 
502.500000	262.713000 
503.000000	264.233000 
503.500000	260.802000 
504.000000	262.873000 
504.500000	264.184000 
505.000000	257.580000 
505.500000	259.299000 
506.000000	261.251000 
506.500000	258.988000 
507.000000	257.189000 
507.500000	252.691000 
508.000000	247.018000 
508.500000	249.200000 
509.000000	251.571000 
509.500000	247.437000 
510.000000	246.015000 
510.500000	241.466000 
511.000000	241.760000 
511.500000	234.560000 
512.000000	231.986000 
512.500000	231.129000 
513.000000	226.083000 
513.500000	224.471000 
514.000000	221.631000 
514.500000	210.247000 
515.000000	203.650000 
515.500000	207.632000 
516.000000	197.852000 
516.500000	191.840000 
517.000000	183.931000 
517.500000	182.874000 
518.000000	177.852000 
518.500000	174.789000 
519.000000	169.409000 
519.500000	163.155000 
520.000000	155.031000 
520.500000	151.801000 
521.000000	143.549000 
521.500000	137.294000 
522.000000	132.362000 
522.500000	127.533000 
523.000000	126.435000 
523.500000	118.958000 
524.000000	113.216000 
524.500000	109.975000 
525.000000	104.507000 
525.500000	98.206000  
526.000000	97.436000  
526.500000	91.872000  
527.000000	85.260000  
527.500000	82.093000  
528.000000	75.717000  
528.500000	71.444000  
529.000000	69.179000  
529.500000	67.672000  
530.000000	61.670000  
530.500000	56.222000  
531.000000	53.151000  
531.500000	49.610000  
532.000000	47.305000  
532.500000	41.537000  
533.000000	38.561000  
533.500000	36.212000  
534.000000	34.771000  
534.500000	30.054000  
535.000000	28.430000  
535.500000	24.811000  
536.000000	22.388000  
536.500000	19.603000  
537.000000	18.117000  
537.500000	16.603000  
538.000000	14.982000  
538.500000	13.661000  
539.000000	12.362000  
539.500000	12.440000  
540.000000	10.465000  
540.500000	10.054000  
541.000000	8.458000   
541.500000	8.352000   
542.000000	7.942000   
542.500000	8.741000   
543.000000	7.530000   
543.500000	6.687000   
544.000000	6.837000   
544.500000	5.460000   
545.000000	5.249000   
545.500000	5.525000   
546.000000	5.692000   
546.500000	4.958000   
547.000000	4.863000   
547.500000	5.543000   
548.000000	5.251000   
548.500000	4.958000   

