PE FL                   SPECTRUM    ASCII       PEDS        1.60        
  -1
0164F5~1.SP
19/01/24
10:20:21.00
19/01/24
10:20:21.00


548.500000
1









LS45
285.00
10.00
10.00
SCAN
1
16
100
100
0
600
0
1
0
1
7
ON
435 365 
0 0 0
#HDR
-1
-1
#GR
NM
INT 
0.00002384185791015625
0.0
230.000000
0.500000
638
8
398.736000
0.366000
#DATA
230.000000	0.419000   
230.500000	0.431000   
231.000000	0.436000   
231.500000	0.450000   
232.000000	0.450000   
232.500000	0.442000   
233.000000	0.415000   
233.500000	0.476000   
234.000000	0.579000   
234.500000	0.366000   
235.000000	0.450000   
235.500000	0.526000   
236.000000	0.489000   
236.500000	0.379000   
237.000000	0.397000   
237.500000	0.468000   
238.000000	0.402000   
238.500000	0.451000   
239.000000	0.505000   
239.500000	0.438000   
240.000000	0.420000   
240.500000	0.576000   
241.000000	0.646000   
241.500000	0.678000   
242.000000	0.450000   
242.500000	0.604000   
243.000000	0.688999   
243.500000	0.570000   
244.000000	0.639000   
244.500000	0.609000   
245.000000	0.690999   
245.500000	0.669000   
246.000000	0.763000   
246.500000	0.576000   
247.000000	0.749000   
247.500000	0.793000   
248.000000	0.768000   
248.500000	0.725000   
249.000000	0.734000   
249.500000	0.804000   
250.000000	0.884000   
250.500000	0.755000   
251.000000	1.146000   
251.500000	0.895000   
252.000000	0.707000   
252.500000	0.752000   
253.000000	0.717000   
253.500000	0.965000   
254.000000	0.797000   
254.500000	0.882000   
255.000000	1.131000   
255.500000	1.098000   
256.000000	1.243000   
256.500000	1.234000   
257.000000	1.135000   
257.500000	1.083000   
258.000000	1.337000   
258.500000	1.449000   
259.000000	1.398000   
259.500000	1.245000   
260.000000	1.523000   
260.500000	1.860000   
261.000000	1.769000   
261.500000	1.896000   
262.000000	2.131000   
262.500000	2.658000   
263.000000	2.715000   
263.500000	3.259000   
264.000000	3.901000   
264.500000	4.450000   
265.000000	5.859000   
265.500000	6.762000   
266.000000	8.609000   
266.500000	10.770000  
267.000000	13.274000  
267.500000	17.131000  
268.000000	21.158000  
268.500000	25.488000  
269.000000	32.207000  
269.500000	36.635000  
270.000000	44.875000  
270.500000	53.716000  
271.000000	60.684000  
271.500000	72.480999  
272.000000	83.159000  
272.500000	98.589000  
273.000000	108.945000 
273.500000	130.041000 
274.000000	142.054000 
274.500000	158.188000 
275.000000	173.254000 
275.500000	195.471000 
276.000000	214.613000 
276.500000	233.144000 
277.000000	251.290000 
277.500000	268.470000 
278.000000	292.193000 
278.500000	307.244000 
279.000000	326.116000 
279.500000	340.361000 
280.000000	357.303000 
280.500000	368.152000 
281.000000	378.104000 
281.500000	383.167000 
282.000000	387.203000 
282.500000	392.786000 
283.000000	395.870000 
283.500000	398.736000 
284.000000	394.848000 
284.500000	389.074000 
285.000000	382.337000 
285.500000	370.895000 
286.000000	360.984000 
286.500000	347.649000 
287.000000	336.205000 
287.500000	320.386000 
288.000000	307.006000 
288.500000	288.601000 
289.000000	269.922000 
289.500000	252.369000 
290.000000	233.099000 
290.500000	217.156000 
291.000000	193.793000 
291.500000	177.812000 
292.000000	158.563000 
292.500000	145.729000 
293.000000	126.263000 
293.500000	116.739000 
294.000000	103.573000 
294.500000	93.681000  
295.000000	82.036000  
295.500000	70.008000  
296.000000	61.771000  
296.500000	52.589000  
297.000000	48.440000  
297.500000	43.103000  
298.000000	39.526000  
298.500000	36.275000  
299.000000	33.980000  
299.500000	33.521000  
300.000000	33.984000  
300.500000	34.584000  
301.000000	35.924000  
301.500000	38.278000  
302.000000	40.793000  
302.500000	43.040000  
303.000000	47.234000  
303.500000	51.890000  
304.000000	56.169000  
304.500000	60.712000  
305.000000	66.256000  
305.500000	71.226000  
306.000000	76.015000  
306.500000	83.130000  
307.000000	88.380000  
307.500000	95.077000  
308.000000	100.915000 
308.500000	105.099000 
309.000000	111.893000 
309.500000	114.881000 
310.000000	118.026000 
310.500000	122.709000 
311.000000	127.842000 
311.500000	129.104000 
312.000000	129.556000 
312.500000	132.293000 
313.000000	131.782000 
313.500000	136.218000 
314.000000	135.826000 
314.500000	135.886000 
315.000000	133.283000 
315.500000	133.926000 
316.000000	129.385000 
316.500000	126.115000 
317.000000	121.686000 
317.500000	118.258000 
318.000000	116.061000 
318.500000	109.714000 
319.000000	103.591000 
319.500000	97.947000  
320.000000	92.025000  
320.500000	87.184000  
321.000000	81.233999  
321.500000	76.915000  
322.000000	69.274000  
322.500000	63.545000  
323.000000	57.949000  
323.500000	53.074000  
324.000000	47.690000  
324.500000	42.894000  
325.000000	37.545000  
325.500000	34.126000  
326.000000	31.156000  
326.500000	28.499000  
327.000000	23.911000  
327.500000	20.651000  
328.000000	19.243000  
328.500000	17.404000  
329.000000	14.794000  
329.500000	13.420000  
330.000000	11.520000  
330.500000	10.498000  
331.000000	9.891999   
331.500000	8.566000   
332.000000	7.949000   
332.500000	7.573000   
333.000000	7.248000   
333.500000	6.914000   
334.000000	6.499000   
334.500000	6.565000   
335.000000	6.238000   
335.500000	6.198000   
336.000000	6.440000   
336.500000	5.755000   
337.000000	5.774000   
337.500000	5.475000   
338.000000	5.772000   
338.500000	5.185000   
339.000000	5.405000   
339.500000	5.399000   
340.000000	5.414000   
340.500000	5.053000   
341.000000	5.731000   
341.500000	5.405000   
342.000000	5.312000   
342.500000	5.515000   
343.000000	4.724000   
343.500000	4.989000   
344.000000	4.477000   
344.500000	4.566000   
345.000000	5.354000   
345.500000	5.555000   
346.000000	4.741000   
346.500000	4.701000   
347.000000	4.978000   
347.500000	4.656000   
348.000000	4.611000   
348.500000	4.814000   
349.000000	4.263000   
349.500000	4.459000   
350.000000	4.707000   
350.500000	4.241000   
351.000000	4.375000   
351.500000	4.447000   
352.000000	4.436000   
352.500000	4.563000   
353.000000	4.265000   
353.500000	4.212000   
354.000000	3.928000   
354.500000	3.948000   
355.000000	3.758000   
355.500000	3.476000   
356.000000	3.884000   
356.500000	3.811000   
357.000000	3.723000   
357.500000	3.697000   
358.000000	3.636000   
358.500000	3.816000   
359.000000	3.811000   
359.500000	3.423000   
360.000000	3.354000   
360.500000	3.411000   
361.000000	3.631000   
361.500000	3.340000   
362.000000	2.950000   
362.500000	3.203000   
363.000000	3.263000   
363.500000	2.766000   
364.000000	3.003000   
364.500000	2.923000   
365.000000	3.168000   
365.500000	2.710000   
366.000000	2.765000   
366.500000	3.035000   
367.000000	2.464000   
367.500000	2.677000   
368.000000	2.844000   
368.500000	2.832000   
369.000000	2.880000   
369.500000	2.751000   
370.000000	2.753000   
370.500000	2.624000   
371.000000	2.914000   
371.500000	3.108000   
372.000000	2.792000   
372.500000	2.893000   
373.000000	2.807000   
373.500000	2.406000   
374.000000	2.460000   
374.500000	2.558000   
375.000000	2.343000   
375.500000	2.550000   
376.000000	2.594000   
376.500000	2.447000   
377.000000	2.546000   
377.500000	2.472000   
378.000000	2.205000   
378.500000	2.335000   
379.000000	2.409000   
379.500000	2.267000   
380.000000	2.015000   
380.500000	2.350000   
381.000000	1.991000   
381.500000	2.097000   
382.000000	2.316000   
382.500000	2.189000   
383.000000	2.372000   
383.500000	2.340000   
384.000000	2.049000   
384.500000	2.303000   
385.000000	2.136000   
385.500000	2.299000   
386.000000	2.410000   
386.500000	2.085000   
387.000000	2.116000   
387.500000	2.001000   
388.000000	2.057000   
388.500000	2.286000   
389.000000	2.255000   
389.500000	2.012000   
390.000000	1.911000   
390.500000	2.043000   
391.000000	1.781000   
391.500000	1.781000   
392.000000	1.947000   
392.500000	2.084000   
393.000000	2.101000   
393.500000	2.050000   
394.000000	1.968000   
394.500000	1.784000   
395.000000	1.861000   
395.500000	2.036000   
396.000000	1.939000   
396.500000	2.039000   
397.000000	1.697000   
397.500000	1.910000   
398.000000	2.106000   
398.500000	1.916000   
399.000000	2.117000   
399.500000	2.213000   
400.000000	2.054000   
400.500000	2.007000   
401.000000	1.973000   
401.500000	1.718000   
402.000000	1.916000   
402.500000	1.889000   
403.000000	2.009000   
403.500000	1.969000   
404.000000	1.697000   
404.500000	1.647000   
405.000000	1.979000   
405.500000	1.909000   
406.000000	1.937000   
406.500000	1.807000   
407.000000	1.699000   
407.500000	1.969000   
408.000000	1.862000   
408.500000	1.868000   
409.000000	2.066000   
409.500000	2.084000   
410.000000	1.902000   
410.500000	1.847000   
411.000000	1.628000   
411.500000	2.187000   
412.000000	2.285000   
412.500000	1.947000   
413.000000	1.863000   
413.500000	1.724000   
414.000000	1.613000   
414.500000	1.592000   
415.000000	1.830000   
415.500000	1.702000   
416.000000	1.734000   
416.500000	1.870000   
417.000000	1.824000   
417.500000	1.649000   
418.000000	1.695000   
418.500000	1.783000   
419.000000	1.715000   
419.500000	1.876000   
420.000000	1.819000   
420.500000	2.035000   
421.000000	1.789000   
421.500000	1.564000   
422.000000	1.931000   
422.500000	2.058000   
423.000000	1.856000   
423.500000	1.706000   
424.000000	1.656000   
424.500000	1.719000   
425.000000	1.499000   
425.500000	1.737000   
426.000000	1.614000   
426.500000	1.810000   
427.000000	1.734000   
427.500000	1.672000   
428.000000	1.827000   
428.500000	1.766000   
429.000000	1.707000   
429.500000	1.862000   
430.000000	1.675000   
430.500000	1.853000   
431.000000	1.821000   
431.500000	1.702000   
432.000000	1.662000   
432.500000	1.748000   
433.000000	1.574000   
433.500000	1.671000   
434.000000	1.712000   
434.500000	1.424000   
435.000000	1.838000   
435.500000	2.015000   
436.000000	1.640000   
436.500000	1.345000   
437.000000	1.646000   
437.500000	1.753000   
438.000000	1.394000   
438.500000	1.355000   
439.000000	1.505000   
439.500000	1.566000   
440.000000	1.474000   
440.500000	1.712000   
441.000000	1.471000   
441.500000	1.617000   
442.000000	1.868000   
442.500000	1.677000   
443.000000	1.597000   
443.500000	1.610000   
444.000000	1.571000   
444.500000	1.975000   
445.000000	1.698000   
445.500000	1.531000   
446.000000	1.742000   
446.500000	2.006000   
447.000000	1.720000   
447.500000	1.669000   
448.000000	1.785000   
448.500000	1.751000   
449.000000	1.581000   
449.500000	1.699000   
450.000000	1.740000   
450.500000	1.763000   
451.000000	1.724000   
451.500000	2.074000   
452.000000	1.773000   
452.500000	1.960000   
453.000000	1.696000   
453.500000	1.783000   
454.000000	1.702000   
454.500000	2.045000   
455.000000	2.017000   
455.500000	1.912000   
456.000000	1.661000   
456.500000	1.861000   
457.000000	1.967000   
457.500000	1.764000   
458.000000	1.912000   
458.500000	2.036000   
459.000000	1.826000   
459.500000	1.772000   
460.000000	2.061000   
460.500000	1.845000   
461.000000	1.964000   
461.500000	2.126000   
462.000000	1.867000   
462.500000	1.579000   
463.000000	1.645000   
463.500000	1.864000   
464.000000	1.895000   
464.500000	2.094000   
465.000000	1.993000   
465.500000	1.946000   
466.000000	1.885000   
466.500000	1.562000   
467.000000	1.809000   
467.500000	1.813000   
468.000000	1.831000   
468.500000	1.725000   
469.000000	1.693000   
469.500000	1.617000   
470.000000	1.536000   
470.500000	1.427000   
471.000000	1.433000   
471.500000	1.473000   
472.000000	1.528000   
472.500000	1.588000   
473.000000	1.487000   
473.500000	1.883000   
474.000000	1.970000   
474.500000	1.753000   
475.000000	1.630000   
475.500000	1.408000   
476.000000	1.827000   
476.500000	1.564000   
477.000000	1.958000   
477.500000	1.803000   
478.000000	1.748000   
478.500000	1.914000   
479.000000	1.702000   
479.500000	1.520000   
480.000000	1.650000   
480.500000	1.649000   
481.000000	1.779000   
481.500000	1.892000   
482.000000	1.618000   
482.500000	1.598000   
483.000000	1.699000   
483.500000	1.843000   
484.000000	1.719000   
484.500000	1.758000   
485.000000	1.658000   
485.500000	1.760000   
486.000000	1.984000   
486.500000	2.071000   
487.000000	1.743000   
487.500000	1.790000   
488.000000	1.894000   
488.500000	2.078000   
489.000000	1.852000   
489.500000	2.006000   
490.000000	2.229000   
490.500000	1.799000   
491.000000	1.872000   
491.500000	2.232000   
492.000000	2.486000   
492.500000	2.305000   
493.000000	2.149000   
493.500000	2.365000   
494.000000	2.331000   
494.500000	2.139000   
495.000000	2.571000   
495.500000	2.410000   
496.000000	2.124000   
496.500000	2.027000   
497.000000	2.368000   
497.500000	2.043000   
498.000000	1.956000   
498.500000	2.709000   
499.000000	2.377000   
499.500000	2.027000   
500.000000	2.321000   
500.500000	2.497000   
501.000000	2.199000   
501.500000	2.172000   
502.000000	2.313000   
502.500000	2.468000   
503.000000	1.976000   
503.500000	2.407000   
504.000000	2.319000   
504.500000	1.983000   
505.000000	2.193000   
505.500000	2.377000   
506.000000	2.521000   
506.500000	2.180000   
507.000000	2.290000   
507.500000	1.989000   
508.000000	1.979000   
508.500000	2.030000   
509.000000	1.819000   
509.500000	1.836000   
510.000000	2.006000   
510.500000	2.222000   
511.000000	2.458000   
511.500000	2.241000   
512.000000	2.257000   
512.500000	2.257000   
513.000000	2.212000   
513.500000	2.366000   
514.000000	2.300000   
514.500000	2.673000   
515.000000	2.765000   
515.500000	2.785000   
516.000000	2.472000   
516.500000	2.741000   
517.000000	2.900000   
517.500000	2.568000   
518.000000	2.604000   
518.500000	2.728000   
519.000000	3.082000   
519.500000	2.981000   
520.000000	2.800000   
520.500000	3.003000   
521.000000	3.098000   
521.500000	3.176000   
522.000000	3.001000   
522.500000	2.987000   
523.000000	2.882000   
523.500000	2.763000   
524.000000	2.882000   
524.500000	3.021000   
525.000000	3.040000   
525.500000	3.083000   
526.000000	3.360000   
526.500000	2.928000   
527.000000	2.944000   
527.500000	3.223000   
528.000000	2.847000   
528.500000	2.980000   
529.000000	3.324000   
529.500000	3.199000   
530.000000	3.027000   
530.500000	2.923000   
531.000000	3.368000   
531.500000	3.556000   
532.000000	3.328000   
532.500000	3.331000   
533.000000	3.635000   
533.500000	3.571000   
534.000000	3.460000   
534.500000	3.515000   
535.000000	3.478000   
535.500000	3.469000   
536.000000	3.829000   
536.500000	3.940000   
537.000000	3.884000   
537.500000	4.137000   
538.000000	4.318000   
538.500000	4.661000   
539.000000	4.876000   
539.500000	5.366000   
540.000000	6.022000   
540.500000	6.754000   
541.000000	7.919000   
541.500000	9.185000   
542.000000	10.539000  
542.500000	13.106000  
543.000000	14.163000  
543.500000	15.860000  
544.000000	19.361000  
544.500000	22.671000  
545.000000	26.157000  
545.500000	31.450000  
546.000000	35.055000  
546.500000	42.216000  
547.000000	48.613000  
547.500000	55.829000  
548.000000	61.658000  
548.500000	72.325000  

