PE FL                   SPECTRUM    ASCII       PEDS        1.60        
  -1
0124DI~1.SP
19/01/24
10:11:18.00
19/01/24
10:11:18.00


548.500000
1









LS45
230.00
10.00
10.00
SCAN
1
16
100
100
0
600
0
1
0
1
7
ON
435 365 
0 0 0
#HDR
-1
-1
#GR
NM
INT 
0.00002384185791015625
0.0
230.000000
0.500000
638
8
999.999000
2.250000
#DATA
230.000000	61.722000  
230.500000	60.805000  
231.000000	61.065000  
231.500000	58.801000  
232.000000	56.800000  
232.500000	57.247000  
233.000000	54.643000  
233.500000	51.312000  
234.000000	49.052000  
234.500000	47.102000  
235.000000	43.895000  
235.500000	41.622000  
236.000000	41.370000  
236.500000	38.556000  
237.000000	38.627000  
237.500000	36.946000  
238.000000	34.149000  
238.500000	33.860000  
239.000000	32.622000  
239.500000	32.705000  
240.000000	33.123000  
240.500000	35.317000  
241.000000	34.246000  
241.500000	34.795000  
242.000000	36.807000  
242.500000	36.210000  
243.000000	38.890000  
243.500000	40.876000  
244.000000	41.943000  
244.500000	44.688000  
245.000000	44.673000  
245.500000	48.872000  
246.000000	49.856000  
246.500000	52.241000  
247.000000	55.383000  
247.500000	53.671000  
248.000000	53.713000  
248.500000	55.347000  
249.000000	54.232000  
249.500000	55.987000  
250.000000	52.456000  
250.500000	51.251000  
251.000000	48.961000  
251.500000	49.959000  
252.000000	48.927000  
252.500000	44.519000  
253.000000	42.291000  
253.500000	42.754000  
254.000000	40.367000  
254.500000	38.463000  
255.000000	35.406000  
255.500000	32.248000  
256.000000	31.529000  
256.500000	28.461000  
257.000000	26.244000  
257.500000	23.004000  
258.000000	22.381000  
258.500000	18.627000  
259.000000	16.491000  
259.500000	13.943000  
260.000000	14.099000  
260.500000	11.314000  
261.000000	10.413000  
261.500000	8.821000   
262.000000	8.900000   
262.500000	7.453000   
263.000000	6.242000   
263.500000	5.338000   
264.000000	5.804000   
264.500000	5.627000   
265.000000	4.985000   
265.500000	3.726000   
266.000000	3.185000   
266.500000	3.230000   
267.000000	3.660000   
267.500000	3.370000   
268.000000	2.689000   
268.500000	2.940000   
269.000000	2.662000   
269.500000	2.927000   
270.000000	2.774000   
270.500000	3.001000   
271.000000	2.508000   
271.500000	2.682000   
272.000000	2.250000   
272.500000	2.533000   
273.000000	2.415000   
273.500000	2.417000   
274.000000	2.591000   
274.500000	3.006000   
275.000000	2.807000   
275.500000	2.719000   
276.000000	2.936000   
276.500000	2.908000   
277.000000	2.709000   
277.500000	2.260000   
278.000000	2.611000   
278.500000	2.509000   
279.000000	3.252000   
279.500000	3.153000   
280.000000	2.987000   
280.500000	3.064000   
281.000000	2.972000   
281.500000	3.238000   
282.000000	3.613000   
282.500000	3.665000   
283.000000	3.842000   
283.500000	3.692000   
284.000000	3.495000   
284.500000	4.102000   
285.000000	3.496000   
285.500000	3.427000   
286.000000	3.724000   
286.500000	4.280000   
287.000000	4.413000   
287.500000	4.097000   
288.000000	4.397000   
288.500000	4.332000   
289.000000	4.978000   
289.500000	4.669000   
290.000000	4.944000   
290.500000	4.569000   
291.000000	4.830000   
291.500000	5.001000   
292.000000	5.121000   
292.500000	5.472000   
293.000000	4.513000   
293.500000	4.723000   
294.000000	5.585000   
294.500000	5.394000   
295.000000	5.292000   
295.500000	5.380000   
296.000000	6.088000   
296.500000	5.857000   
297.000000	5.543000   
297.500000	6.377000   
298.000000	6.600000   
298.500000	6.674000   
299.000000	6.247000   
299.500000	6.082000   
300.000000	6.260000   
300.500000	6.228000   
301.000000	6.925000   
301.500000	6.870000   
302.000000	7.227000   
302.500000	7.736000   
303.000000	7.450000   
303.500000	7.607000   
304.000000	7.184000   
304.500000	7.333000   
305.000000	8.659000   
305.500000	7.774000   
306.000000	8.061000   
306.500000	6.977000   
307.000000	7.309000   
307.500000	7.940000   
308.000000	8.388999   
308.500000	8.247000   
309.000000	8.798999   
309.500000	8.609999   
310.000000	8.757999   
310.500000	8.701000   
311.000000	8.994999   
311.500000	8.015000   
312.000000	8.336000   
312.500000	8.824000   
313.000000	9.407999   
313.500000	10.190000  
314.000000	9.400000   
314.500000	9.505000   
315.000000	9.289000   
315.500000	9.606999   
316.000000	9.757999   
316.500000	10.346000  
317.000000	9.909000   
317.500000	10.587000  
318.000000	10.273000  
318.500000	10.645000  
319.000000	10.682000  
319.500000	10.325000  
320.000000	10.093000  
320.500000	11.312000  
321.000000	11.876000  
321.500000	10.954000  
322.000000	11.258000  
322.500000	9.869000   
323.000000	11.445000  
323.500000	11.113000  
324.000000	10.629000  
324.500000	10.917000  
325.000000	11.115000  
325.500000	11.423000  
326.000000	11.731000  
326.500000	11.711000  
327.000000	12.101000  
327.500000	11.598000  
328.000000	12.545000  
328.500000	12.146000  
329.000000	13.716000  
329.500000	11.495000  
330.000000	11.441000  
330.500000	10.985000  
331.000000	11.623000  
331.500000	12.670000  
332.000000	12.120000  
332.500000	13.003000  
333.000000	11.528000  
333.500000	12.417000  
334.000000	11.086000  
334.500000	12.330000  
335.000000	11.656000  
335.500000	11.974000  
336.000000	11.562000  
336.500000	12.230000  
337.000000	12.441000  
337.500000	12.262000  
338.000000	11.827000  
338.500000	10.480000  
339.000000	11.196000  
339.500000	11.883000  
340.000000	11.500000  
340.500000	10.462000  
341.000000	11.745000  
341.500000	12.198000  
342.000000	11.189000  
342.500000	11.587000  
343.000000	10.766000  
343.500000	10.836000  
344.000000	9.768000   
344.500000	9.773999   
345.000000	10.247000  
345.500000	9.848000   
346.000000	10.391000  
346.500000	10.942000  
347.000000	9.923000   
347.500000	10.196000  
348.000000	9.786000   
348.500000	8.975000   
349.000000	10.255000  
349.500000	10.821000  
350.000000	10.160000  
350.500000	9.510999   
351.000000	9.420000   
351.500000	9.403000   
352.000000	9.335000   
352.500000	10.329000  
353.000000	9.211000   
353.500000	9.940000   
354.000000	9.943000   
354.500000	8.891999   
355.000000	8.856999   
355.500000	9.064000   
356.000000	8.946000   
356.500000	8.470000   
357.000000	8.135999   
357.500000	8.480000   
358.000000	7.453000   
358.500000	7.515000   
359.000000	8.157999   
359.500000	7.348000   
360.000000	7.676000   
360.500000	7.947000   
361.000000	7.549000   
361.500000	7.513000   
362.000000	7.109000   
362.500000	7.452000   
363.000000	6.527000   
363.500000	6.200000   
364.000000	6.750000   
364.500000	6.477000   
365.000000	7.192000   
365.500000	7.495000   
366.000000	7.204000   
366.500000	6.664000   
367.000000	6.408000   
367.500000	6.712000   
368.000000	6.455000   
368.500000	7.190000   
369.000000	6.819000   
369.500000	6.483000   
370.000000	5.802000   
370.500000	6.587000   
371.000000	6.021000   
371.500000	6.045000   
372.000000	5.929000   
372.500000	6.161000   
373.000000	6.387000   
373.500000	6.628000   
374.000000	6.742000   
374.500000	6.602000   
375.000000	5.725000   
375.500000	6.390000   
376.000000	5.843000   
376.500000	5.588000   
377.000000	5.750000   
377.500000	6.048000   
378.000000	5.505000   
378.500000	5.751000   
379.000000	5.596000   
379.500000	5.730000   
380.000000	5.537000   
380.500000	4.788000   
381.000000	6.221000   
381.500000	5.478000   
382.000000	5.060000   
382.500000	5.279000   
383.000000	5.569000   
383.500000	5.096000   
384.000000	5.129000   
384.500000	5.653000   
385.000000	5.218000   
385.500000	5.293000   
386.000000	5.156000   
386.500000	5.375000   
387.000000	5.029000   
387.500000	5.293000   
388.000000	5.471000   
388.500000	4.429000   
389.000000	4.884000   
389.500000	4.917000   
390.000000	5.075000   
390.500000	5.287000   
391.000000	5.445000   
391.500000	5.051000   
392.000000	4.927000   
392.500000	5.424000   
393.000000	4.864000   
393.500000	4.029000   
394.000000	4.632000   
394.500000	5.108000   
395.000000	5.225000   
395.500000	4.529000   
396.000000	4.618000   
396.500000	4.894000   
397.000000	4.617000   
397.500000	4.650000   
398.000000	5.179000   
398.500000	4.619000   
399.000000	5.230000   
399.500000	4.519000   
400.000000	4.548000   
400.500000	4.935000   
401.000000	4.805000   
401.500000	5.517000   
402.000000	4.999000   
402.500000	5.328000   
403.000000	4.782000   
403.500000	4.886000   
404.000000	4.205000   
404.500000	5.387000   
405.000000	5.115000   
405.500000	4.680000   
406.000000	5.741000   
406.500000	4.741000   
407.000000	4.887000   
407.500000	5.144000   
408.000000	4.871000   
408.500000	4.859000   
409.000000	5.799000   
409.500000	5.066000   
410.000000	5.149000   
410.500000	4.827000   
411.000000	4.595000   
411.500000	5.135000   
412.000000	5.137000   
412.500000	5.569000   
413.000000	5.479000   
413.500000	4.905000   
414.000000	5.563000   
414.500000	4.921000   
415.000000	5.617000   
415.500000	5.309000   
416.000000	5.689000   
416.500000	5.002000   
417.000000	5.148000   
417.500000	5.504000   
418.000000	5.372000   
418.500000	5.186000   
419.000000	5.079000   
419.500000	5.201000   
420.000000	5.525000   
420.500000	5.253000   
421.000000	5.214000   
421.500000	5.405000   
422.000000	6.175000   
422.500000	5.347000   
423.000000	5.972000   
423.500000	5.117000   
424.000000	5.541000   
424.500000	5.676000   
425.000000	5.802000   
425.500000	6.265000   
426.000000	5.635000   
426.500000	5.514000   
427.000000	6.007000   
427.500000	6.316000   
428.000000	5.664000   
428.500000	6.324000   
429.000000	6.654000   
429.500000	6.609000   
430.000000	6.675000   
430.500000	6.893000   
431.000000	7.233000   
431.500000	7.054000   
432.000000	7.540000   
432.500000	7.705000   
433.000000	9.430000   
433.500000	9.760999   
434.000000	9.114000   
434.500000	10.767000  
435.000000	12.176000  
435.500000	13.617000  
436.000000	14.583000  
436.500000	16.152000  
437.000000	18.368000  
437.500000	21.552000  
438.000000	25.111000  
438.500000	26.662000  
439.000000	31.123000  
439.500000	33.397000  
440.000000	38.946000  
440.500000	44.915000  
441.000000	51.048000  
441.500000	62.053000  
442.000000	68.235000  
442.500000	75.578999  
443.000000	86.044000  
443.500000	99.557000  
444.000000	114.261000 
444.500000	136.079000 
445.000000	157.487000 
445.500000	185.066000 
446.000000	210.908000 
446.500000	247.724000 
447.000000	300.706000 
447.500000	355.121000 
448.000000	391.702000 
448.500000	455.635000 
449.000000	513.611000 
449.500000	567.230000 
450.000000	684.442000 
450.500000	695.494000 
451.000000	751.695000 
451.500000	808.726000 
452.000000	924.282000 
452.500000	933.492000 
453.000000	999.999000 
453.500000	999.999000 
454.000000	999.999000 
454.500000	999.999000 
455.000000	999.999000 
455.500000	999.999000 
456.000000	999.999000 
456.500000	999.999000 
457.000000	999.999000 
457.500000	999.999000 
458.000000	999.999000 
458.500000	999.999000 
459.000000	999.999000 
459.500000	999.999000 
460.000000	999.999000 
460.500000	999.999000 
461.000000	999.999000 
461.500000	999.999000 
462.000000	999.999000 
462.500000	999.999000 
463.000000	999.999000 
463.500000	999.999000 
464.000000	999.999000 
464.500000	999.999000 
465.000000	980.756000 
465.500000	931.883000 
466.000000	873.793000 
466.500000	818.611000 
467.000000	768.603000 
467.500000	645.770000 
468.000000	640.718000 
468.500000	609.444000 
469.000000	558.731000 
469.500000	523.469000 
470.000000	477.122000 
470.500000	439.357000 
471.000000	411.589000 
471.500000	395.810000 
472.000000	358.045000 
472.500000	326.015000 
473.000000	300.805000 
473.500000	289.771000 
474.000000	268.790000 
474.500000	244.022000 
475.000000	229.632000 
475.500000	216.341000 
476.000000	194.248000 
476.500000	181.008000 
477.000000	162.905000 
477.500000	153.386000 
478.000000	144.036000 
478.500000	131.291000 
479.000000	123.959000 
479.500000	112.084000 
480.000000	108.348000 
480.500000	98.453999  
481.000000	97.637000  
481.500000	96.269000  
482.000000	98.788000  
482.500000	96.950000  
483.000000	100.374000 
483.500000	102.928000 
484.000000	108.746000 
484.500000	111.466000 
485.000000	119.321000 
485.500000	130.598000 
486.000000	137.055000 
486.500000	152.647000 
487.000000	167.603000 
487.500000	180.569000 
488.000000	194.781000 
488.500000	212.337000 
489.000000	227.621000 
489.500000	242.513000 
490.000000	258.165000 
490.500000	279.282000 
491.000000	294.328000 
491.500000	314.180000 
492.000000	331.734000 
492.500000	347.965000 
493.000000	365.286000 
493.500000	379.628000 
494.000000	397.099000 
494.500000	405.384000 
495.000000	417.252000 
495.500000	426.855000 
496.000000	435.597000 
496.500000	440.633000 
497.000000	432.167000 
497.500000	432.760000 
498.000000	431.267000 
498.500000	431.112000 
499.000000	426.337000 
499.500000	415.921000 
500.000000	409.296000 
500.500000	403.221000 
501.000000	391.945000 
501.500000	375.291000 
502.000000	357.761000 
502.500000	343.898000 
503.000000	329.972000 
503.500000	312.228000 
504.000000	302.216000 
504.500000	294.712000 
505.000000	271.998000 
505.500000	261.023000 
506.000000	240.847000 
506.500000	230.115000 
507.000000	213.026000 
507.500000	204.524000 
508.000000	188.312000 
508.500000	180.414000 
509.000000	169.180000 
509.500000	156.771000 
510.000000	143.866000 
510.500000	135.630000 
511.000000	130.536000 
511.500000	127.443000 
512.000000	113.406000 
512.500000	104.223000 
513.000000	103.771000 
513.500000	94.309000  
514.000000	86.613000  
514.500000	78.833000  
515.000000	73.549000  
515.500000	69.619000  
516.000000	65.276000  
516.500000	59.418000  
517.000000	54.907000  
517.500000	50.290000  
518.000000	46.801000  
518.500000	44.926000  
519.000000	42.093000  
519.500000	38.004000  
520.000000	33.601000  
520.500000	30.349000  
521.000000	26.509000  
521.500000	25.897000  
522.000000	22.446000  
522.500000	20.265000  
523.000000	19.525000  
523.500000	19.146000  
524.000000	15.720000  
524.500000	14.858000  
525.000000	13.910000  
525.500000	12.533000  
526.000000	12.309000  
526.500000	11.439000  
527.000000	9.619000   
527.500000	9.102000   
528.000000	8.638000   
528.500000	8.334000   
529.000000	7.700000   
529.500000	7.457000   
530.000000	7.241000   
530.500000	5.966000   
531.000000	5.868000   
531.500000	5.389000   
532.000000	6.043000   
532.500000	6.107000   
533.000000	5.522000   
533.500000	5.701000   
534.000000	6.345000   
534.500000	5.451000   
535.000000	5.104000   
535.500000	5.142000   
536.000000	4.776000   
536.500000	5.206000   
537.000000	5.004000   
537.500000	5.032000   
538.000000	4.834000   
538.500000	5.500000   
539.000000	5.155000   
539.500000	4.958000   
540.000000	5.863000   
540.500000	5.789000   
541.000000	5.241000   
541.500000	5.724000   
542.000000	6.146000   
542.500000	5.430000   
543.000000	5.812000   
543.500000	5.056000   
544.000000	5.747000   
544.500000	4.753000   
545.000000	4.448000   
545.500000	4.749000   
546.000000	4.781000   
546.500000	5.015000   
547.000000	4.957000   
547.500000	4.340000   
548.000000	5.460000   
548.500000	4.589000   

