PE FL                   SPECTRUM    ASCII       PEDS        1.60        
  -1
0124SC~1.SP
19/01/24
12:56:33.00
19/01/24
12:56:33.00


548.500000
1









LS45
230.00
10.00
10.00
SCAN
1
16
100
100
0
600
0
1
0
1
7
ON
550 545 
0 0 0
#HDR
-1
-1
#GR
NM
INT 
0.00002384185791015625
0.0
230.000000
0.500000
638
8
12.406000
0.258000
#DATA
230.000000	0.649000  
230.500000	0.376000  
231.000000	0.452000  
231.500000	0.258000  
232.000000	0.369000  
232.500000	0.480000  
233.000000	0.455000  
233.500000	0.560000  
234.000000	0.617000  
234.500000	0.598000  
235.000000	0.754000  
235.500000	0.592000  
236.000000	0.794000  
236.500000	0.613000  
237.000000	0.610000  
237.500000	0.667000  
238.000000	0.679000  
238.500000	0.585000  
239.000000	0.739000  
239.500000	0.581000  
240.000000	0.737000  
240.500000	0.939999  
241.000000	0.679000  
241.500000	0.882000  
242.000000	0.987000  
242.500000	0.885000  
243.000000	0.868000  
243.500000	1.070000  
244.000000	1.432000  
244.500000	1.056000  
245.000000	1.064000  
245.500000	1.578000  
246.000000	1.436000  
246.500000	1.232000  
247.000000	1.507000  
247.500000	1.511000  
248.000000	1.349000  
248.500000	1.889000  
249.000000	1.983000  
249.500000	1.636000  
250.000000	1.876000  
250.500000	2.144000  
251.000000	1.965000  
251.500000	1.971000  
252.000000	2.470000  
252.500000	2.218000  
253.000000	2.396000  
253.500000	2.191000  
254.000000	2.368000  
254.500000	2.640000  
255.000000	2.414000  
255.500000	2.361000  
256.000000	2.668000  
256.500000	2.297000  
257.000000	2.401000  
257.500000	2.289000  
258.000000	2.126000  
258.500000	2.313000  
259.000000	2.413000  
259.500000	2.399000  
260.000000	2.351000  
260.500000	2.086000  
261.000000	1.933000  
261.500000	2.257000  
262.000000	2.181000  
262.500000	1.887000  
263.000000	1.911000  
263.500000	1.846000  
264.000000	1.748000  
264.500000	2.297000  
265.000000	2.228000  
265.500000	1.946000  
266.000000	1.900000  
266.500000	1.727000  
267.000000	1.848000  
267.500000	2.063000  
268.000000	1.744000  
268.500000	1.973000  
269.000000	1.726000  
269.500000	1.679000  
270.000000	1.562000  
270.500000	1.363000  
271.000000	1.503000  
271.500000	1.869000  
272.000000	1.701000  
272.500000	1.423000  
273.000000	1.612000  
273.500000	1.557000  
274.000000	1.565000  
274.500000	1.889000  
275.000000	1.528000  
275.500000	1.681000  
276.000000	1.626000  
276.500000	1.724000  
277.000000	1.627000  
277.500000	1.737000  
278.000000	1.657000  
278.500000	1.900000  
279.000000	1.392000  
279.500000	1.471000  
280.000000	1.802000  
280.500000	1.168000  
281.000000	1.475000  
281.500000	1.668000  
282.000000	2.040000  
282.500000	1.509000  
283.000000	1.661000  
283.500000	1.989000  
284.000000	2.348000  
284.500000	1.790000  
285.000000	1.983000  
285.500000	1.884000  
286.000000	2.144000  
286.500000	2.069000  
287.000000	1.956000  
287.500000	1.964000  
288.000000	2.044000  
288.500000	2.265000  
289.000000	1.869000  
289.500000	1.928000  
290.000000	2.384000  
290.500000	1.850000  
291.000000	1.996000  
291.500000	2.083000  
292.000000	2.040000  
292.500000	2.207000  
293.000000	2.463000  
293.500000	2.172000  
294.000000	2.130000  
294.500000	2.075000  
295.000000	2.292000  
295.500000	2.586000  
296.000000	2.543000  
296.500000	2.755000  
297.000000	2.823000  
297.500000	2.388000  
298.000000	2.611000  
298.500000	2.656000  
299.000000	2.839000  
299.500000	2.862000  
300.000000	2.847000  
300.500000	2.752000  
301.000000	2.787000  
301.500000	2.783000  
302.000000	2.444000  
302.500000	2.912000  
303.000000	3.023000  
303.500000	3.026000  
304.000000	3.498000  
304.500000	3.360000  
305.000000	2.778000  
305.500000	2.920000  
306.000000	3.545000  
306.500000	2.984000  
307.000000	3.457000  
307.500000	3.621000  
308.000000	3.485000  
308.500000	3.391000  
309.000000	3.516000  
309.500000	3.357000  
310.000000	3.762000  
310.500000	3.370000  
311.000000	3.751000  
311.500000	3.632000  
312.000000	3.389000  
312.500000	3.462000  
313.000000	4.166000  
313.500000	4.247000  
314.000000	3.780000  
314.500000	3.498000  
315.000000	3.999000  
315.500000	4.050000  
316.000000	4.257000  
316.500000	4.225000  
317.000000	4.069000  
317.500000	3.773000  
318.000000	4.106000  
318.500000	4.514000  
319.000000	4.406000  
319.500000	4.688000  
320.000000	4.754000  
320.500000	4.360000  
321.000000	4.723000  
321.500000	4.580000  
322.000000	4.628000  
322.500000	4.417000  
323.000000	4.922000  
323.500000	5.301000  
324.000000	5.069000  
324.500000	5.141000  
325.000000	6.102000  
325.500000	5.603000  
326.000000	5.970000  
326.500000	5.572000  
327.000000	6.183000  
327.500000	5.740000  
328.000000	5.887000  
328.500000	5.990000  
329.000000	5.958000  
329.500000	6.155000  
330.000000	6.324000  
330.500000	5.948000  
331.000000	5.700000  
331.500000	5.808000  
332.000000	6.214000  
332.500000	6.703000  
333.000000	6.556000  
333.500000	7.097000  
334.000000	6.378000  
334.500000	7.305000  
335.000000	6.926000  
335.500000	6.975000  
336.000000	6.811000  
336.500000	6.806000  
337.000000	7.046000  
337.500000	7.490000  
338.000000	7.329000  
338.500000	7.111000  
339.000000	7.426000  
339.500000	8.234999  
340.000000	7.501000  
340.500000	7.149000  
341.000000	7.259000  
341.500000	7.080000  
342.000000	7.741000  
342.500000	7.108000  
343.000000	7.939000  
343.500000	8.004000  
344.000000	7.463000  
344.500000	7.075000  
345.000000	7.930000  
345.500000	7.284000  
346.000000	7.108000  
346.500000	7.523000  
347.000000	7.401000  
347.500000	7.810000  
348.000000	8.029000  
348.500000	7.882000  
349.000000	7.250000  
349.500000	6.801000  
350.000000	7.267000  
350.500000	6.879000  
351.000000	8.081000  
351.500000	7.852000  
352.000000	7.818000  
352.500000	6.998000  
353.000000	7.380000  
353.500000	7.839000  
354.000000	7.973000  
354.500000	8.311999  
355.000000	7.500000  
355.500000	7.410000  
356.000000	7.963000  
356.500000	8.577000  
357.000000	7.845000  
357.500000	7.526000  
358.000000	7.251000  
358.500000	8.209000  
359.000000	8.224000  
359.500000	7.795000  
360.000000	7.473000  
360.500000	7.258000  
361.000000	6.967000  
361.500000	7.251000  
362.000000	7.238000  
362.500000	7.795000  
363.000000	8.214000  
363.500000	8.188000  
364.000000	7.713000  
364.500000	7.739000  
365.000000	7.968000  
365.500000	7.480000  
366.000000	7.463000  
366.500000	8.413000  
367.000000	8.244999  
367.500000	8.077000  
368.000000	7.806000  
368.500000	8.718000  
369.000000	6.974000  
369.500000	6.569000  
370.000000	6.883000  
370.500000	7.960000  
371.000000	7.383000  
371.500000	7.322000  
372.000000	7.496000  
372.500000	8.085000  
373.000000	7.949000  
373.500000	7.690000  
374.000000	8.125999  
374.500000	7.614000  
375.000000	7.739000  
375.500000	7.456000  
376.000000	7.212000  
376.500000	7.201000  
377.000000	6.939000  
377.500000	7.450000  
378.000000	7.094000  
378.500000	7.640000  
379.000000	7.346000  
379.500000	7.308000  
380.000000	7.148000  
380.500000	7.774000  
381.000000	8.065000  
381.500000	7.522000  
382.000000	7.018000  
382.500000	7.336000  
383.000000	7.510000  
383.500000	7.858000  
384.000000	6.826000  
384.500000	7.764000  
385.000000	7.952000  
385.500000	7.236000  
386.000000	6.700000  
386.500000	6.924000  
387.000000	6.670000  
387.500000	7.707000  
388.000000	7.228000  
388.500000	6.641000  
389.000000	7.094000  
389.500000	6.665000  
390.000000	7.013000  
390.500000	7.319000  
391.000000	6.944000  
391.500000	6.849000  
392.000000	7.181000  
392.500000	6.828000  
393.000000	6.954000  
393.500000	7.070000  
394.000000	6.543000  
394.500000	7.520000  
395.000000	6.658000  
395.500000	6.881000  
396.000000	7.252000  
396.500000	7.075000  
397.000000	6.987000  
397.500000	6.129000  
398.000000	6.785000  
398.500000	7.162000  
399.000000	6.475000  
399.500000	6.299000  
400.000000	6.439000  
400.500000	6.454000  
401.000000	6.420000  
401.500000	7.030000  
402.000000	6.668000  
402.500000	6.548000  
403.000000	6.758000  
403.500000	6.423000  
404.000000	6.225000  
404.500000	6.754000  
405.000000	6.338000  
405.500000	6.496000  
406.000000	6.214000  
406.500000	6.598000  
407.000000	6.916000  
407.500000	6.553000  
408.000000	5.943000  
408.500000	6.208000  
409.000000	5.858000  
409.500000	6.169000  
410.000000	6.554000  
410.500000	7.017000  
411.000000	6.566000  
411.500000	6.604000  
412.000000	6.038000  
412.500000	5.999000  
413.000000	6.939000  
413.500000	6.607000  
414.000000	6.215000  
414.500000	5.624000  
415.000000	5.914000  
415.500000	6.884000  
416.000000	6.905000  
416.500000	6.593000  
417.000000	5.612000  
417.500000	5.722000  
418.000000	6.316000  
418.500000	6.643000  
419.000000	7.047000  
419.500000	6.660000  
420.000000	6.574000  
420.500000	5.960000  
421.000000	7.308000  
421.500000	6.575000  
422.000000	6.183000  
422.500000	6.056000  
423.000000	5.764000  
423.500000	5.624000  
424.000000	6.316000  
424.500000	6.536000  
425.000000	5.791000  
425.500000	5.422000  
426.000000	6.475000  
426.500000	5.758000  
427.000000	5.749000  
427.500000	5.762000  
428.000000	5.823000  
428.500000	6.111000  
429.000000	6.739000  
429.500000	5.598000  
430.000000	5.638000  
430.500000	5.654000  
431.000000	5.677000  
431.500000	5.856000  
432.000000	5.414000  
432.500000	5.981000  
433.000000	5.310000  
433.500000	5.523000  
434.000000	5.865000  
434.500000	5.637000  
435.000000	5.130000  
435.500000	6.154000  
436.000000	6.066000  
436.500000	5.357000  
437.000000	5.153000  
437.500000	5.027000  
438.000000	5.320000  
438.500000	5.386000  
439.000000	6.346000  
439.500000	4.810000  
440.000000	5.696000  
440.500000	6.237000  
441.000000	5.379000  
441.500000	5.709000  
442.000000	5.710000  
442.500000	6.177000  
443.000000	5.961000  
443.500000	5.348000  
444.000000	5.608000  
444.500000	5.654000  
445.000000	6.181000  
445.500000	5.272000  
446.000000	5.862000  
446.500000	6.269000  
447.000000	5.406000  
447.500000	5.338000  
448.000000	5.743000  
448.500000	6.140000  
449.000000	6.092000  
449.500000	6.480000  
450.000000	6.600000  
450.500000	7.132000  
451.000000	6.742000  
451.500000	6.901000  
452.000000	7.284000  
452.500000	6.862000  
453.000000	7.297000  
453.500000	7.212000  
454.000000	8.483000  
454.500000	8.823000  
455.000000	8.829000  
455.500000	9.042999  
456.000000	9.166000  
456.500000	9.067000  
457.000000	9.625000  
457.500000	9.114000  
458.000000	8.951000  
458.500000	8.311999  
459.000000	8.731000  
459.500000	8.667000  
460.000000	9.473000  
460.500000	9.641999  
461.000000	8.984999  
461.500000	9.353000  
462.000000	9.634000  
462.500000	9.571000  
463.000000	9.664999  
463.500000	9.352000  
464.000000	9.893000  
464.500000	10.350000 
465.000000	9.608000  
465.500000	9.490000  
466.000000	9.694000  
466.500000	10.209000 
467.000000	9.223000  
467.500000	10.066000 
468.000000	10.249000 
468.500000	10.966000 
469.000000	10.465000 
469.500000	9.539999  
470.000000	10.645000 
470.500000	11.277000 
471.000000	11.044000 
471.500000	11.775000 
472.000000	11.508000 
472.500000	11.450000 
473.000000	11.852000 
473.500000	11.831000 
474.000000	12.209000 
474.500000	11.207000 
475.000000	11.057000 
475.500000	10.851000 
476.000000	10.684000 
476.500000	10.780000 
477.000000	10.463000 
477.500000	10.392000 
478.000000	9.513000  
478.500000	9.834000  
479.000000	9.696000  
479.500000	8.843000  
480.000000	8.954000  
480.500000	8.747999  
481.000000	9.018000  
481.500000	8.664000  
482.000000	8.667999  
482.500000	8.884000  
483.000000	8.089000  
483.500000	8.365000  
484.000000	7.572000  
484.500000	8.019000  
485.000000	8.297000  
485.500000	8.164999  
486.000000	8.601000  
486.500000	8.864000  
487.000000	8.403000  
487.500000	8.903000  
488.000000	8.465999  
488.500000	8.813000  
489.000000	9.603999  
489.500000	9.289999  
490.000000	9.401999  
490.500000	8.438000  
491.000000	9.231000  
491.500000	10.615000 
492.000000	10.053000 
492.500000	9.907999  
493.000000	11.171000 
493.500000	10.073000 
494.000000	10.445000 
494.500000	10.526000 
495.000000	10.878000 
495.500000	10.956000 
496.000000	11.227000 
496.500000	11.107000 
497.000000	11.677000 
497.500000	11.285000 
498.000000	10.974000 
498.500000	10.415000 
499.000000	11.599000 
499.500000	11.435000 
500.000000	11.249000 
500.500000	10.089000 
501.000000	11.330000 
501.500000	11.252000 
502.000000	11.363000 
502.500000	11.877000 
503.000000	11.346000 
503.500000	11.521000 
504.000000	11.340000 
504.500000	10.904000 
505.000000	10.653000 
505.500000	10.551000 
506.000000	10.348000 
506.500000	10.831000 
507.000000	10.869000 
507.500000	11.065000 
508.000000	10.272000 
508.500000	10.547000 
509.000000	10.965000 
509.500000	11.748000 
510.000000	12.065000 
510.500000	11.835000 
511.000000	12.406000 
511.500000	11.740000 
512.000000	11.320000 
512.500000	10.664000 
513.000000	11.804000 
513.500000	12.003000 
514.000000	11.708000 
514.500000	11.258000 
515.000000	11.822000 
515.500000	11.625000 
516.000000	11.038000 
516.500000	11.188000 
517.000000	10.636000 
517.500000	11.082000 
518.000000	10.579000 
518.500000	10.938000 
519.000000	10.066000 
519.500000	10.328000 
520.000000	9.333000  
520.500000	10.318000 
521.000000	9.961000  
521.500000	9.372000  
522.000000	9.113000  
522.500000	9.406000  
523.000000	8.903000  
523.500000	7.873000  
524.000000	8.106000  
524.500000	7.398000  
525.000000	7.021000  
525.500000	7.566000  
526.000000	7.611000  
526.500000	7.310000  
527.000000	6.386000  
527.500000	6.223000  
528.000000	6.225000  
528.500000	6.032000  
529.000000	5.555000  
529.500000	5.530000  
530.000000	5.303000  
530.500000	5.541000  
531.000000	5.004000  
531.500000	5.475000  
532.000000	4.549000  
532.500000	4.520000  
533.000000	4.476000  
533.500000	4.291000  
534.000000	4.573000  
534.500000	4.040000  
535.000000	3.967000  
535.500000	4.543000  
536.000000	4.842000  
536.500000	5.130000  
537.000000	3.981000  
537.500000	4.531000  
538.000000	4.008000  
538.500000	4.462000  
539.000000	4.343000  
539.500000	3.862000  
540.000000	4.177000  
540.500000	4.573000  
541.000000	4.741000  
541.500000	4.461000  
542.000000	4.283000  
542.500000	3.713000  
543.000000	4.157000  
543.500000	4.235000  
544.000000	4.312000  
544.500000	4.144000  
545.000000	3.752000  
545.500000	3.627000  
546.000000	3.586000  
546.500000	3.414000  
547.000000	3.543000  
547.500000	3.280000  
548.000000	3.550000  
548.500000	3.151000  

